Folder: mphys-project-xrd/patterns/mosaic

File: xrd_pattern.csv
5 1.05757e-12
5.25503 5.32565e-13
5.51005 1.87922e-12
5.76508 1.22791e-11
6.0201 4.00686e-12
6.27513 1.45164e-12
6.53015 2.40652e-12
6.78518 8.77909e-12
7.0402 1.46222e-11
7.29523 3.5962e-12
7.55026 2.72538e-12
7.80528 6.84519e-12
8.06031 2.95762e-11
8.31533 1.73314e-11
8.57036 1.01779e-11
8.82538 1.41236e-11
9.08041 3.19934e-11
9.33543 1.37098e-10
9.59046 6.65275e-11
9.84548 7.78165e-11
10.1005 2.01676e-10
10.3555 6.95408e-10
10.6106 5.74257e-09
10.8656 1.03516e-08
11.1206 1.50783e-07
11.3756 0.000569227
11.6307 6.4737e-05
11.8857 2.52626e-07
12.1407 7.41508e-09
12.3957 9.7413e-10
12.6508 1.83207e-10
12.9058 1.19405e-10
13.1608 1.07825e-10
13.4158 6.94907e-11
13.6709 1.58505e-11
13.9259 8.6407e-12
14.1809 5.32712e-12
14.4359 4.44474e-12
14.691 6.70168e-12
14.946 4.9675e-12
15.201 1.69222e-12
15.456 1.30282e-12
15.7111 6.93495e-13
15.9661 8.1248e-13
16.2211 8.02388e-13
16.4761 1.23281e-12
16.7312 5.66931e-13
16.9862 3.56797e-13
17.2412 2.58873e-13
17.4962 1.59077e-13
17.7513 1.95691e-13
18.0063 1.52415e-13
18.2613 2.43479e-13
18.5164 2.09025e-13
18.7714 9.07673e-14
19.0264 8.56788e-14
19.2814 8.07074e-14
19.5365 6.82766e-14
19.7915 1.54574e-13
20.0465 2.77938e-13
20.3015 4.7323e-13
20.5566 1.43017e-12
20.8116 3.45508e-12
21.0666 5.1493e-12
21.3216 6.67137e-12
21.5767 1.52439e-11
21.8317 4.29507e-11
22.0867 1.01501e-10
22.3417 2.71686e-10
22.5968 1.51047e-09
22.8518 1.78016e-08
23.1068 9.07903e-07
23.3618 0.00305895
23.6169 0.000212405
23.8719 2.02184e-07
24.1269 9.37828e-09
24.3819 1.49333e-09
24.637 3.7147e-10
24.892 1.14521e-10
25.147 4.00126e-11
25.402 1.52501e-11
25.6571 6.23205e-12
25.9121 2.70735e-12
26.1671 1.2437e-12
26.4221 6.01894e-13
26.6772 3.06526e-13
26.9322 1.65127e-13
27.1872 9.57673e-14
27.4422 6.18399e-14
27.6973 4.60868e-14
27.9523 3.96791e-14
28.2073 3.74261e-14
28.4623 3.5849e-14
28.7174 3.29662e-14
28.9724 2.90537e-14
29.2274 2.6992e-14
29.4824 3.01886e-14
29.7375 3.78215e-14
29.9925 4.24324e-14
30.2475 3.76853e-14
30.5026 3.19893e-14
30.7576 4.27979e-14
31.0126 6.37442e-14
31.2676 6.51929e-14
31.5227 6.49702e-14
31.7777 1.19815e-13
32.0327 1.7226e-13
32.2877 1.33665e-13
32.5428 1.34706e-13
32.7978 1.86823e-13
33.0528 1.47512e-13
33.3078 2.70785e-13
33.5629 3.38056e-13
33.8179 5.19508e-13
34.0729 1.0947e-12
34.3279 8.83335e-13
34.583 1.66835e-12
34.838 1.76638e-12
35.093 5.5513e-12
35.348 9.51108e-12
35.6031 4.8922e-11
35.8581 1.11419e-10
36.1131 2.0214e-09
36.3681 2.19217e-07
36.6232 0.00103288
36.8782 1.07036e-06
37.1332 5.73088e-09
37.3882 1.50364e-10
37.6433 5.1063e-11
37.8983 1.00958e-11
38.1533 3.49252e-12
38.4083 1.50106e-12
38.6634 8.61097e-13
38.9184 4.79433e-13
39.1734 2.53816e-13
39.4284 1.41602e-13
39.6835 1.26872e-13
39.9385 1.20864e-13
40.1935 4.76831e-14
40.4485 3.08547e-14
40.7036 2.67936e-14
40.9586 1.81691e-14
41.2136 1.06775e-14
41.4686 1.04294e-14
41.7237 9.94591e-15
41.9787 5.2501e-15
42.2337 5.04985e-15
42.4887 4.47181e-15
42.7438 2.60244e-15
42.9988 3.08006e-15
43.2538 2.24749e-15
43.5089 2.17559e-15
43.7639 2.80203e-15
44.0189 1.42326e-15
44.2739 1.04128e-15
44.529 8.55713e-16
44.784 7.59232e-16
45.039 1.06959e-15
45.294 4.63709e-16
45.5491 4.14441e-16
45.8041 4.04988e-16
46.0591 3.29429e-16
46.3141 2.50655e-16
46.5692 3.16958e-16
46.8242 3.14179e-16
47.0792 3.08477e-16
47.3342 5.47274e-16
47.5893 4.41617e-16
47.8443 1.08158e-15
48.0993 8.83065e-16
48.3543 2.19791e-15
48.6094 2.21004e-15
48.8644 4.11107e-15
49.1194 6.23901e-15
49.3744 7.5549e-15
49.6295 1.44161e-14
49.8845 2.42222e-14
50.1395 3.63541e-14
50.3945 6.45214e-14
50.6496 2.36322e-13
50.9046 2.91966e-13
51.1596 6.92098e-13
51.4146 2.13902e-12
51.6697 1.44918e-11
51.9247 1.90303e-10
52.1797 1.7507e-09
52.4347 8.6823e-08
52.6898 3.79002e-05
52.9448 7.54241e-07
53.1998 8.94111e-09
53.4548 5.65012e-10
53.7099 3.55234e-11
53.9649 4.66528e-12
54.2199 9.67387e-13
54.4749 3.52549e-13
54.73 9.87216e-14
54.985 6.51984e-14
55.24 1.73631e-14
55.495 6.17112e-15
55.7501 4.1495e-15
56.0051 4.10723e-15
56.2601 1.49057e-15
56.5152 5.68694e-16
56.7702 4.54531e-16
57.0252 5.03422e-16
57.2802 1.50287e-16
57.5353 1.11218e-16
57.7903 6.30458e-17
58.0453 4.06102e-17
58.3003 4.91741e-17
58.5554 2.08186e-17
58.8104 1.41199e-17
59.0654 7.65677e-18
59.3204 6.44826e-18
59.5755 5.76885e-18
59.8305 4.97427e-18
60.0855 7.24627e-18
60.3405 5.23449e-18
60.5956 3.04779e-18
60.8506 3.60433e-18
61.1056 3.74546e-18
61.3606 2.77754e-18
61.6157 2.34779e-18
61.8707 2.84815e-18
62.1257 3.52178e-18
62.3807 3.8476e-18
62.6358 3.84306e-18
62.8908 3.71301e-18
63.1458 3.59965e-18
63.4008 3.55363e-18
63.6559 3.58457e-18
63.9109 3.69112e-18
64.1659 3.84264e-18
64.4209 3.9254e-18
64.676 3.73034e-18
64.931 3.13745e-18
65.186 2.51058e-18
65.441 2.68155e-18
65.6961 3.68649e-18
65.9511 3.88322e-18
66.2061 3.07032e-18
66.4611 4.4198e-18
66.7162 6.31925e-18
66.9712 4.16481e-18
67.2262 3.80087e-18
67.4812 3.84887e-18
67.7363 3.08931e-18
67.9913 4.37455e-18
68.2463 4.26259e-18
68.5014 6.73002e-18
68.7564 4.04626e-18
69.0114 4.04173e-18
69.2664 5.04125e-18
69.5215 4.37864e-18
69.7765 7.42102e-18
70.0315 5.76479e-18
70.2865 4.2244e-18
70.5416 4.98168e-18
70.7966 9.38956e-18
71.0516 7.2615e-18
71.3066 6.61499e-18
71.5617 7.88778e-18
71.8167 6.86125e-18
72.0717 6.05445e-18
72.3267 7.59164e-18
72.5818 1.01597e-17
72.8368 8.04242e-18
73.0918 9.70685e-18
73.3468 1.13822e-17
73.6019 1.03096e-17
73.8569 1.80905e-17
74.1119 1.80049e-17
74.3669 2.14519e-17
74.622 2.81657e-17
74.877 1.74861e-17
75.132 3.43408e-17
75.387 3.55169e-17
75.6421 3.19982e-17
75.8971 3.91861e-17
76.1521 5.59128e-17
76.4071 5.31574e-17
76.6622 8.06501e-17
76.9172 8.79072e-17
77.1722 1.26561e-16
77.4272 2.0329e-16
77.6823 1.96183e-16
77.9373 1.87537e-16
78.1923 4.40205e-16
78.4473 4.06594e-16
78.7024 8.30839e-16
78.9574 1.13128e-15
79.2124 2.8374e-15
79.4674 4.46367e-15
79.7225 7.84786e-15
79.9775 1.34772e-14
80 1.37844e-14